{
    "activity": [
        {
            "reference": {
                "reference": "#requestgroup-test"
            }
        },
        {
            "reference": {
                "reference": "#servicerequestmdc-dev-spec-profile-glucose"
            }
        }
    ],
    "category": [
        {
            "coding": [
                {
                    "code": "kiola-care-plan",
                    "system": "https://fhir.ehealth-systems.at/kiola/careplan/category"
                }
            ],
            "text": "KIOLA Care Plan"
        }
    ],
    "contained": [
        {
            "id": "device-sdc",
            "resourceType": "Device",
            "type": {
                "coding": [
                    {
                        "code": "SDC",
                        "system": "https://fhir.ehealth-systems.at/kiola/device"
                    }
                ]
            }
        },
        {
            "id": "device-mdc-dev-spec-profile-bp",
            "property": [
                {
                    "type": {
                        "coding": [
                            {
                                "code": "MDC_PRESS_BLD_NONINV_MEAN",
                                "system": "https://fhir.ehealth-systems.at/kiola/device/AIT-11073"
                            }
                        ]
                    },
                    "valueCode": [
                        {
                            "coding": [
                                {
                                    "code": "MDC_DIM_MMHG:{min=1.000,max=1.000}",
                                    "display": "mmhg",
                                    "system": "https://fhir.ehealth-systems.at/kiola/dimension/AIT-11073"
                                }
                            ]
                        }
                    ]
                },
                {
                    "type": {
                        "coding": [
                            {
                                "code": "MDC_PRESS_BLD_NONINV_SYS",
                                "system": "https://fhir.ehealth-systems.at/kiola/device/AIT-11073"
                            }
                        ]
                    },
                    "valueCode": [
                        {
                            "coding": [
                                {
                                    "code": "MDC_DIM_MMHG:{min=60.000,max=279.000}",
                                    "display": "mmhg",
                                    "system": "https://fhir.ehealth-systems.at/kiola/dimension/AIT-11073"
                                }
                            ]
                        }
                    ]
                },
                {
                    "type": {
                        "coding": [
                            {
                                "code": "MDC_PRESS_BLD_NONINV_DIA",
                                "system": "https://fhir.ehealth-systems.at/kiola/device/AIT-11073"
                            }
                        ]
                    },
                    "valueCode": [
                        {
                            "coding": [
                                {
                                    "code": "MDC_DIM_MMHG:{min=40.000,max=200.000}",
                                    "display": "mmhg",
                                    "system": "https://fhir.ehealth-systems.at/kiola/dimension/AIT-11073"
                                }
                            ]
                        }
                    ]
                },
                {
                    "type": {
                        "coding": [
                            {
                                "code": "MDC_PULS_RATE_NON_INV",
                                "system": "https://fhir.ehealth-systems.at/kiola/device/AIT-11073"
                            }
                        ]
                    },
                    "valueCode": [
                        {
                            "coding": [
                                {
                                    "code": "MDC_DIM_BEAT_PER_MIN:{min=40.000,max=180.000}",
                                    "display": "bpm",
                                    "system": "https://fhir.ehealth-systems.at/kiola/dimension/AIT-11073"
                                }
                            ]
                        }
                    ]
                }
            ],
            "resourceType": "Device",
            "type": {
                "coding": [
                    {
                        "code": "MDC_DEV_SPEC_PROFILE_BP",
                        "display": "Blood pressure device",
                        "system": "https://fhir.ehealth-systems.at/kiola/device/AIT-11073"
                    }
                ]
            }
        },
        {
            "code": {
                "coding": [
                    {
                        "code": "MDC_DEV_SPEC_PROFILE_BP",
                        "system": "https://fhir.ehealth-systems.at/kiola/measurement"
                    }
                ],
                "text": "Blood pressure measurement"
            },
            "id": "servicerequest-mdc-dev-spec-profile-bp",
            "instantiatesCanonical": [
                "https://fhir.ehealth-systems.at/artifacts/ActivityDefinition/mdc-dev-spec-profile-bp"
            ],
            "intent": "option",
            "occurrenceTiming": {
                "repeat": {
                    "frequency": 1,
                    "period": 3,
                    "periodUnit": "d"
                }
            },
            "performer": [
                {
                    "reference": "#device-sdc"
                },
                {
                    "reference": "#device-mdc-dev-spec-profile-bp"
                }
            ],
            "resourceType": "ServiceRequest",
            "status": "active",
            "subject": {
                "identifier": {
                    "system": "https://fhir.ehealth-systems.at/kiola/identifier/subject",
                    "value": "hCZQJm6BrSimF232A39oL2"
                }
            }
        },
        {
            "id": "device-sdc-2",
            "resourceType": "Device",
            "type": {
                "coding": [
                    {
                        "code": "SDC",
                        "system": "https://fhir.ehealth-systems.at/kiola/device"
                    }
                ]
            }
        },
        {
            "id": "device-mdc-dev-spec-profile-scale",
            "property": [
                {
                    "type": {
                        "coding": [
                            {
                                "code": "blocked_device_type",
                                "display": "KMC Blocked Device",
                                "system": "https://fhir.ehealth-systems.at/kiola/device/kmc"
                            }
                        ]
                    },
                    "valueCode": [
                        {
                            "coding": [
                                {
                                    "code": "ExampleScale",
                                    "display": "Example body weight scale",
                                    "system": "https://fhir.ehealth-systems.at/kiola/device"
                                }
                            ]
                        }
                    ]
                },
                {
                    "type": {
                        "coding": [
                            {
                                "code": "MDC_VND_AIT_ABDOMINAL_GIRTH",
                                "system": "https://fhir.ehealth-systems.at/kiola/device/AIT-11073"
                            }
                        ]
                    },
                    "valueCode": [
                        {
                            "coding": [
                                {
                                    "code": "MDC_DIM_CENTI_M:{min=0.000,max=300.000}",
                                    "display": "cm",
                                    "system": "https://fhir.ehealth-systems.at/kiola/dimension/AIT-11073"
                                }
                            ]
                        }
                    ]
                },
                {
                    "type": {
                        "coding": [
                            {
                                "code": "MDC_MASS_BODY_ACTUAL",
                                "system": "https://fhir.ehealth-systems.at/kiola/device/AIT-11073"
                            }
                        ]
                    },
                    "valueCode": [
                        {
                            "coding": [
                                {
                                    "code": "MDC_DIM_KILO_G:{min=30.000,max=300.000}",
                                    "display": "kg",
                                    "system": "https://fhir.ehealth-systems.at/kiola/dimension/AIT-11073"
                                }
                            ]
                        }
                    ]
                }
            ],
            "resourceType": "Device",
            "type": {
                "coding": [
                    {
                        "code": "MDC_DEV_SPEC_PROFILE_SCALE",
                        "display": "Body weight scale",
                        "system": "https://fhir.ehealth-systems.at/kiola/device/AIT-11073"
                    }
                ]
            }
        },
        {
            "code": {
                "coding": [
                    {
                        "code": "MDC_DEV_SPEC_PROFILE_SCALE",
                        "system": "https://fhir.ehealth-systems.at/kiola/measurement"
                    }
                ],
                "text": "Body weight measurement"
            },
            "id": "servicerequest-mdc-dev-spec-profile-scale",
            "instantiatesCanonical": [
                "https://fhir.ehealth-systems.at/artifacts/ActivityDefinition/mdc-dev-spec-profile-scale"
            ],
            "intent": "option",
            "occurrenceTiming": {
                "repeat": {
                    "frequency": 1,
                    "period": 1,
                    "periodUnit": "d"
                }
            },
            "performer": [
                {
                    "reference": "#device-sdc-2"
                },
                {
                    "reference": "#device-mdc-dev-spec-profile-scale"
                }
            ],
            "resourceType": "ServiceRequest",
            "status": "active",
            "subject": {
                "identifier": {
                    "system": "https://fhir.ehealth-systems.at/kiola/identifier/subject",
                    "value": "hCZQJm6BrSimF232A39oL2"
                }
            }
        },
        {
            "id": "device-sdc-3",
            "resourceType": "Device",
            "type": {
                "coding": [
                    {
                        "code": "SDC",
                        "system": "https://fhir.ehealth-systems.at/kiola/device"
                    }
                ]
            }
        },
        {
            "code": {
                "coding": [
                    {
                        "code": "MDC_DEV_SPEC_PROFILE_VND_AIT_WELLBEING",
                        "system": "https://fhir.ehealth-systems.at/kiola/measurement"
                    }
                ],
                "text": "Subjective wellbeing measurement"
            },
            "id": "servicerequest-mdc-dev-spec-profile-vnd-ait-wellbe",
            "instantiatesCanonical": [
                "https://fhir.ehealth-systems.at/artifacts/ActivityDefinition/mdc-dev-spec-profile-vnd-ait-wellbeing"
            ],
            "intent": "option",
            "occurrenceTiming": {
                "repeat": {
                    "frequency": 1,
                    "period": 3,
                    "periodUnit": "d"
                }
            },
            "performer": [
                {
                    "reference": "#device-sdc-3"
                }
            ],
            "resourceType": "ServiceRequest",
            "status": "active",
            "subject": {
                "identifier": {
                    "system": "https://fhir.ehealth-systems.at/kiola/identifier/subject",
                    "value": "hCZQJm6BrSimF232A39oL2"
                }
            }
        },
        {
            "id": "device-sdc-4",
            "resourceType": "Device",
            "type": {
                "coding": [
                    {
                        "code": "SDC",
                        "system": "https://fhir.ehealth-systems.at/kiola/device"
                    }
                ]
            }
        },
        {
            "code": {
                "coding": [
                    {
                        "code": "MDC_DEV_SPEC_PROFILE_VND_AIT_COMMENT",
                        "system": "https://fhir.ehealth-systems.at/kiola/measurement"
                    }
                ],
                "text": "Comment entry"
            },
            "id": "servicerequest-mdc-dev-spec-profile-vnd-ait-commen",
            "instantiatesCanonical": [
                "https://fhir.ehealth-systems.at/artifacts/ActivityDefinition/mdc-dev-spec-profile-vnd-ait-comment"
            ],
            "intent": "option",
            "performer": [
                {
                    "reference": "#device-sdc-4"
                }
            ],
            "resourceType": "ServiceRequest",
            "status": "active",
            "subject": {
                "identifier": {
                    "system": "https://fhir.ehealth-systems.at/kiola/identifier/subject",
                    "value": "hCZQJm6BrSimF232A39oL2"
                }
            }
        },
        {
            "action": [
                {
                    "resource": {
                        "reference": "#servicerequest-mdc-dev-spec-profile-bp"
                    },
                    "title": "Blood pressure measurement"
                },
                {
                    "resource": {
                        "reference": "#servicerequest-mdc-dev-spec-profile-scale"
                    },
                    "title": "Body weight measurement"
                },
                {
                    "resource": {
                        "reference": "#servicerequest-mdc-dev-spec-profile-vnd-ait-wellbe"
                    },
                    "title": "Wellbeing measurement"
                },
                {
                    "resource": {
                        "reference": "#servicerequest-mdc-dev-spec-profile-vnd-ait-commen"
                    },
                    "title": "Messung Kommentar"
                }
            ],
            "id": "requestgroup-test",
            "instantiatesCanonical": [
                "https://fhir.ehealth-systems.at/artifacts/PlanDefinition/Test"
            ],
            "intent": "order",
            "resourceType": "RequestGroup",
            "status": "active"
        },
        {
            "id": "device-sdc-5",
            "resourceType": "Device",
            "type": {
                "coding": [
                    {
                        "code": "SDC",
                        "system": "https://fhir.ehealth-systems.at/kiola/device"
                    }
                ]
            }
        },
        {
            "code": {
                "coding": [
                    {
                        "code": "MDC_DEV_SPEC_PROFILE_GLUCOSE",
                        "system": "https://fhir.ehealth-systems.at/kiola/measurement"
                    }
                ],
                "text": "Glucose measurement"
            },
            "id": "servicerequestmdc-dev-spec-profile-glucose",
            "instantiatesCanonical": [
                "https://fhir.ehealth-systems.at/artifacts/ActivityDefinition/mdc-dev-spec-profile-glucose"
            ],
            "intent": "order",
            "performer": [
                {
                    "reference": "#device-sdc-5"
                }
            ],
            "resourceType": "ServiceRequest",
            "status": "active",
            "subject": {
                "identifier": {
                    "system": "https://fhir.ehealth-systems.at/kiola/identifier/subject",
                    "value": "hCZQJm6BrSimF232A39oL2"
                }
            }
        }
    ],
    "id": "5341",
    "instantiatesCanonical": [
        "https://fhir.ehealth-systems.at/artifacts/PlanDefinition/Test"
    ],
    "intent": "order",
    "meta": {
        "profile": [
            "https://fhir.ehealth-systems.at/artifacts/StructureDefinition/kiola-care-plan"
        ],
        "tag": [
            {
                "code": "SENSOR_CONFIGURATION:{identifier=21778}",
                "system": "https://fhir.ehealth-systems.at/kiola/careplan/transient-tag"
            },
            {
                "code": "SENSOR_CONFIGURATION:{identifier=21779}",
                "system": "https://fhir.ehealth-systems.at/kiola/careplan/transient-tag"
            }
        ]
    },
    "resourceType": "CarePlan",
    "status": "active",
    "subject": {
        "identifier": {
            "system": "https://fhir.ehealth-systems.at/kiola/identifier/subject",
            "value": "hCZQJm6BrSimF232A39oL2"
        }
    }
}